# Eigenspectrum: all energies in eV
# -ik-  |  i = 1   	2   	3   	4   	5   	6   	7   	8   	9   	10  	11  	12  	13  	14  	15  	16  	17  	18  	19  	20  	21  	22  	23  	24  	25  	26  	27  	28  	29  	30  	31  	32  	33  	34  	35  	36  	37  	38  	39  	40  	41  	42  	43  	44  	45  	46  	47  	48  	49  	50  	51  	52  	53  	54  	55  	56  	
1	   -1.814447	    2.752171	    2.752171	    4.395909	    4.395909	    4.815411	    6.491065	    6.491065	    6.642984	    7.344521	    7.344521	   14.490764	   14.490764	   15.470274	   24.260137	   24.260137	   27.329728	   27.329728	   28.803054	   30.999043	   31.884449	   36.814048	   36.814048	   38.023208	   38.023208	   41.518022	   43.371679	   45.402230	   45.402230	   48.660340	   50.938317	   50.938317	   52.720628	   56.575123	   58.871893	   58.871893	   61.530914	   62.675377	   62.675377	   64.782373	   67.157988	   69.196607	   69.196607	   72.717109	   72.991176	   72.991176	   73.022350	   75.217891	   75.217891	   77.950557	   79.657925	   80.071586	   80.071586	   82.419834	   84.786805	   84.786805	
2	    0.361466	    2.726771	    3.455500	    4.122143	    4.273048	    4.570545	    5.978927	    6.303643	    6.308903	    6.885500	    7.353967	    9.399899	   17.649604	   18.099963	   21.962368	   22.790086	   25.855641	   27.218194	   29.496320	   29.641166	   33.384244	   35.192767	   37.898615	   38.086298	   41.489287	   43.741329	   44.936038	   46.344570	   47.241094	   49.221173	   51.641454	   53.144228	   54.585754	   54.836543	   58.064655	   59.205621	   61.245052	   62.327248	   63.278511	   64.287752	   66.046528	   66.905496	   67.935920	   69.051607	   71.265012	   71.818151	   72.232931	   73.271571	   74.189100	   75.727785	   77.797530	   77.807786	   79.953097	   80.901910	   82.393592	   82.416098	
3	    1.675587	    2.495632	    3.696443	    3.820128	    4.378334	    4.462221	    6.080848	    6.402532	    6.726534	    7.544419	    7.785912	    9.675690	   13.597991	   16.435614	   19.814031	   23.214256	   24.600305	   26.552066	   30.832643	   31.693978	   35.134560	   35.336118	   38.251864	   40.830531	   40.889080	   42.001110	   48.436877	   50.614968	   51.352881	   51.917645	   52.194263	   53.781495	   54.558536	   56.005470	   56.957278	   57.278993	   59.976898	   60.977757	   61.476311	   64.202738	   64.469464	   64.806458	   65.407582	   65.639140	   67.819378	   68.896341	   70.419966	   70.992423	   72.720627	   74.229922	   74.936071	   75.922476	   77.490274	   79.687632	   80.293278	   82.804419	
4	    0.361466	    2.726771	    3.455500	    4.122143	    4.273048	    4.570545	    5.978927	    6.303643	    6.308903	    6.885500	    7.353967	    9.399899	   17.649604	   18.099963	   21.962368	   22.790086	   25.855641	   27.218194	   29.496320	   29.641166	   33.384244	   35.192767	   37.898615	   38.086298	   41.489287	   43.741329	   44.936038	   46.344570	   47.241094	   49.221173	   51.641454	   53.144228	   54.585754	   54.836543	   58.064655	   59.205621	   61.245052	   62.327248	   63.278511	   64.287752	   66.046528	   66.905496	   67.935920	   69.051607	   71.265012	   71.818151	   72.232931	   73.271571	   74.189100	   75.727785	   77.797530	   77.807786	   79.953097	   80.901910	   82.393592	   82.416098	
5	    1.675587	    2.495632	    3.696443	    3.820128	    4.378334	    4.462221	    6.080848	    6.402532	    6.726534	    7.544419	    7.785912	    9.675690	   13.597991	   16.435614	   19.814031	   23.214256	   24.600305	   26.552066	   30.832643	   31.693978	   35.134560	   35.336118	   38.251864	   40.830531	   40.889080	   42.001110	   48.436877	   50.614968	   51.352881	   51.917645	   52.194263	   53.781495	   54.558536	   56.005470	   56.957278	   57.278993	   59.976898	   60.977757	   61.476311	   64.202738	   64.469464	   64.806458	   65.407582	   65.639140	   67.819378	   68.896341	   70.419966	   70.992423	   72.720627	   74.229922	   74.936071	   75.922476	   77.490274	   79.687632	   80.293278	   82.804507	
6	    2.968367	    3.366907	    3.366907	    3.397981	    3.955490	    3.955490	    5.940009	    5.940009	    7.493755	    7.493755	    9.885018	   13.079915	   13.079915	   15.060695	   17.728510	   17.728510	   18.750000	   22.414984	   36.986089	   36.986089	   38.886369	   41.698576	   41.698576	   44.144865	   44.924626	   46.273289	   46.273289	   48.208486	   48.208486	   48.453841	   52.842217	   53.023037	   53.245085	   53.245085	   54.453769	   54.453769	   59.119446	   59.122887	   59.122887	   59.810300	   59.810300	   61.284796	   65.323737	   67.169225	   67.169225	   70.835374	   70.835374	   72.307655	   73.986536	   73.986536	   76.928505	   77.230246	   78.103797	   82.069144	   82.615810	   82.615810	
