# Eigenspectrum: all energies in eV
# -ik-  |  i = 1   	2   	3   	4   	5   	6   	7   	8   	9   	10  	11  	12  	13  	14  	15  	16  	17  	18  	19  	20  	21  	22  	23  	24  	25  	26  	27  	28  	29  	30  	31  	32  	33  	34  	35  	36  	37  	38  	39  	40  	41  	42  	43  	44  	45  	46  	47  	48  	49  	50  	51  	52  	53  	54  	55  	56  	
1	   -1.996223	    1.482211	    1.482211	    3.092520	    3.092520	    3.800949	    4.316997	    4.448712	    4.448712	    5.208079	    5.208079	   13.900791	   13.900791	   14.946970	   23.782956	   23.782956	   27.075220	   27.075220	   28.047025	   30.328819	   32.008518	   36.459452	   36.459452	   37.576353	   37.576353	   41.144829	   42.839777	   44.945234	   44.945234	   48.321739	   50.486175	   50.486175	   52.560779	   56.039068	   58.337320	   58.337320	   61.275772	   61.840877	   61.840877	   63.868641	   66.554550	   68.443617	   68.443617	   72.248472	   72.845175	   72.845175	   72.870876	   74.702653	   74.702653	   77.623318	   79.539142	   79.657780	   79.657780	   82.211928	   84.735149	   84.735149	
2	    0.074708	    1.790078	    2.180365	    2.878061	    3.018734	    3.367921	    4.020594	    4.243384	    4.579565	    4.940550	    5.081416	    7.973211	   16.976790	   17.518460	   21.423362	   22.274734	   25.487086	   26.849087	   29.212421	   29.224138	   33.056947	   34.685817	   37.352973	   37.820188	   41.155789	   43.343358	   44.506936	   46.133556	   46.896683	   48.786596	   51.198547	   52.714872	   54.361243	   54.503508	   57.782370	   58.806717	   60.249364	   61.644823	   62.195978	   63.623364	   65.761263	   66.282929	   67.637497	   68.531959	   70.783288	   71.239705	   71.805439	   72.977134	   73.852763	   75.646799	   77.260258	   77.573150	   79.484544	   80.699744	   81.893225	   82.217656	
3	    0.925905	    1.434628	    2.406071	    2.556400	    3.302593	    3.588423	    4.362982	    4.479156	    4.640162	    5.234919	    6.015529	    8.555923	   12.492236	   15.618144	   19.330650	   22.890917	   24.170995	   26.104543	   30.392361	   31.459182	   34.989809	   35.006636	   37.632629	   40.632748	   40.655840	   41.414368	   48.142858	   50.147849	   51.004817	   51.766706	   52.069723	   53.355363	   54.140254	   55.477920	   56.504823	   56.813950	   58.985800	   60.390621	   61.150503	   63.083276	   63.882012	   64.563440	   65.180302	   65.352892	   67.149282	   68.475892	   69.909729	   70.488983	   72.321333	   74.101552	   74.541823	   75.478316	   77.294440	   79.252139	   79.878637	   82.382002	
4	    0.074708	    1.790078	    2.180365	    2.878061	    3.018734	    3.367921	    4.020594	    4.243384	    4.579565	    4.940550	    5.081416	    7.973211	   16.976790	   17.518460	   21.423362	   22.274734	   25.487086	   26.849087	   29.212421	   29.224138	   33.056947	   34.685817	   37.352973	   37.820188	   41.155789	   43.343358	   44.506936	   46.133556	   46.896683	   48.786596	   51.198547	   52.714872	   54.361243	   54.503508	   57.782370	   58.806717	   60.249364	   61.644823	   62.195978	   63.623364	   65.761263	   66.282929	   67.637497	   68.531959	   70.783288	   71.239705	   71.805439	   72.977134	   73.852763	   75.646799	   77.260258	   77.573150	   79.484544	   80.699744	   81.893225	   82.217656	
5	    0.925905	    1.434628	    2.406071	    2.556400	    3.302593	    3.588423	    4.362982	    4.479156	    4.640162	    5.234919	    6.015529	    8.555923	   12.492236	   15.618144	   19.330650	   22.890917	   24.170995	   26.104543	   30.392361	   31.459182	   34.989809	   35.006636	   37.632629	   40.632748	   40.655840	   41.414368	   48.142858	   50.147849	   51.004817	   51.766706	   52.069723	   53.355363	   54.140254	   55.477920	   56.504823	   56.813950	   58.985800	   60.390621	   61.150503	   63.083276	   63.882012	   64.563440	   65.180302	   65.352892	   67.149282	   68.475892	   69.909729	   70.488983	   72.321333	   74.101552	   74.541823	   75.478316	   77.294440	   79.252139	   79.878637	   82.382020	
6	    1.887839	    2.244771	    2.244771	    2.443900	    2.686703	    2.686703	    4.624959	    4.624959	    4.706912	    4.706912	    8.562460	   12.173580	   12.173580	   14.410116	   17.070846	   17.070846	   18.182458	   21.766736	   36.897046	   36.897046	   39.003193	   41.534299	   41.534299	   43.589143	   44.787311	   45.828606	   45.828606	   47.828748	   47.828748	   47.955092	   52.840365	   52.840365	   52.885378	   52.929737	   54.012242	   54.012243	   58.150799	   58.150799	   58.424833	   59.462672	   59.462672	   60.128355	   64.745191	   66.677314	   66.677314	   70.196076	   70.196076	   71.703900	   73.657220	   73.657220	   76.531438	   77.048603	   77.845829	   81.788776	   82.426070	   82.426070	
